[{"correct":true,"cue":"nocue","flanker_type":"neutral","rt":646,"trial_num":1,"corr":true},{"correct":true,"cue":"center","flanker_type":"congruent","rt":504,"trial_num":2,"corr":true},{"correct":true,"cue":"double","flanker_type":"incongruent","rt":608,"trial_num":3,"corr":true},{"correct":true,"cue":"nocue","flanker_type":"incongruent","rt":658,"trial_num":4,"corr":true},{"correct":true,"cue":"center","flanker_type":"congruent","rt":516,"trial_num":5,"corr":true},{"correct":true,"cue":"spatial","flanker_type":"neutral","rt":601,"trial_num":6,"corr":true},{"correct":true,"cue":"nocue","flanker_type":"incongruent","rt":570,"trial_num":7,"corr":true},{"correct":true,"cue":"double","flanker_type":"congruent","rt":613,"trial_num":8,"corr":true},{"correct":true,"cue":"spatial","flanker_type":"neutral","rt":547,"trial_num":9,"corr":true},{"correct":true,"cue":"spatial","flanker_type":"congruent","rt":559,"trial_num":10,"corr":true},{"correct":true,"cue":"double","flanker_type":"congruent","rt":512,"trial_num":11,"corr":true},{"correct":true,"cue":"center","flanker_type":"incongruent","rt":577,"trial_num":12,"corr":true},{"correct":true,"cue":"double","flanker_type":"congruent","rt":562,"trial_num":13,"corr":true},{"correct":true,"cue":"center","flanker_type":"incongruent","rt":528,"trial_num":14,"corr":true},{"correct":true,"cue":"double","flanker_type":"incongruent","rt":669,"trial_num":15,"corr":true},{"correct":true,"cue":"center","flanker_type":"incongruent","rt":564,"trial_num":16,"corr":true},{"correct":true,"cue":"spatial","flanker_type":"congruent","rt":623,"trial_num":17,"corr":true},{"correct":true,"cue":"center","flanker_type":"incongruent","rt":736,"trial_num":18,"corr":true},{"correct":true,"cue":"center","flanker_type":"neutral","rt":536,"trial_num":19,"corr":true},{"correct":true,"cue":"center","flanker_type":"neutral","rt":487,"trial_num":20,"corr":true},{"correct":true,"cue":"spatial","flanker_type":"congruent","rt":632,"trial_num":21,"corr":true},{"correct":true,"cue":"nocue","flanker_type":"neutral","rt":554,"trial_num":22,"corr":true},{"correct":true,"cue":"nocue","flanker_type":"incongruent","rt":624,"trial_num":23,"corr":true},{"correct":true,"cue":"double","flanker_type":"incongruent","rt":696,"trial_num":24,"corr":true},{"correct":true,"cue":"spatial","flanker_type":"neutral","rt":525,"trial_num":25,"corr":true},{"correct":true,"cue":"nocue","flanker_type":"congruent","rt":614,"trial_num":26,"corr":true},{"correct":true,"cue":"nocue","flanker_type":"neutral","rt":610,"trial_num":27,"corr":true},{"correct":true,"cue":"spatial","flanker_type":"incongruent","rt":560,"trial_num":28,"corr":false},{"correct":true,"cue":"double","flanker_type":"neutral","rt":507,"trial_num":29,"corr":true},{"correct":true,"cue":"double","flanker_type":"neutral","rt":414,"trial_num":30,"corr":true},{"correct":true,"cue":"double","flanker_type":"congruent","rt":591,"trial_num":31,"corr":true},{"correct":true,"cue":"double","flanker_type":"incongruent","rt":481,"trial_num":32,"corr":true},{"correct":true,"cue":"spatial","flanker_type":"incongruent","rt":732,"trial_num":33,"corr":false},{"correct":true,"cue":"center","flanker_type":"congruent","rt":701,"trial_num":34,"corr":true},{"correct":true,"cue":"spatial","flanker_type":"incongruent","rt":587,"trial_num":35,"corr":false},{"correct":true,"cue":"nocue","flanker_type":"congruent","rt":593,"trial_num":36,"corr":true},{"correct":true,"cue":"nocue","flanker_type":"incongruent","rt":567,"trial_num":37,"corr":true},{"correct":true,"cue":"double","flanker_type":"neutral","rt":552,"trial_num":38,"corr":true},{"correct":true,"cue":"center","flanker_type":"congruent","rt":499,"trial_num":39,"corr":true},{"correct":true,"cue":"spatial","flanker_type":"incongruent","rt":668,"trial_num":40,"corr":false},{"correct":true,"cue":"center","flanker_type":"neutral","rt":605,"trial_num":41,"corr":true},{"correct":true,"cue":"nocue","flanker_type":"congruent","rt":534,"trial_num":42,"corr":true},{"correct":true,"cue":"spatial","flanker_type":"congruent","rt":567,"trial_num":43,"corr":true},{"correct":true,"cue":"nocue","flanker_type":"congruent","rt":494,"trial_num":44,"corr":true},{"correct":true,"cue":"nocue","flanker_type":"neutral","rt":536,"trial_num":45,"corr":true},{"correct":true,"cue":"spatial","flanker_type":"neutral","rt":515,"trial_num":46,"corr":true},{"correct":true,"cue":"center","flanker_type":"neutral","rt":433,"trial_num":47,"corr":true},{"correct":true,"cue":"double","flanker_type":"neutral","rt":581,"trial_num":48,"corr":true},{"correct":true,"cue":"nocue","flanker_type":"neutral","rt":593,"trial_num":49,"corr":true},{"correct":true,"cue":"double","flanker_type":"congruent","rt":602,"trial_num":50,"corr":true},{"correct":true,"cue":"nocue","flanker_type":"congruent","rt":540,"trial_num":51,"corr":true},{"correct":true,"cue":"spatial","flanker_type":"congruent","rt":515,"trial_num":52,"corr":true},{"correct":true,"cue":"center","flanker_type":"neutral","rt":576,"trial_num":53,"corr":true},{"correct":true,"cue":"center","flanker_type":"incongruent","rt":558,"trial_num":54,"corr":true},{"correct":true,"cue":"center","flanker_type":"neutral","rt":511,"trial_num":55,"corr":true},{"correct":true,"cue":"double","flanker_type":"congruent","rt":544,"trial_num":56,"corr":true},{"correct":true,"cue":"nocue","flanker_type":"incongruent","rt":543,"trial_num":57,"corr":true},{"correct":true,"cue":"nocue","flanker_type":"neutral","rt":485,"trial_num":58,"corr":true},{"correct":true,"cue":"center","flanker_type":"neutral","rt":550,"trial_num":59,"corr":true},{"correct":true,"cue":"nocue","flanker_type":"congruent","rt":580,"trial_num":60,"corr":true},{"correct":true,"cue":"double","flanker_type":"congruent","rt":518,"trial_num":61,"corr":true},{"correct":true,"cue":"nocue","flanker_type":"congruent","rt":649,"trial_num":62,"corr":true},{"correct":true,"cue":"spatial","flanker_type":"congruent","rt":503,"trial_num":63,"corr":true},{"correct":true,"cue":"spatial","flanker_type":"congruent","rt":678,"trial_num":64,"corr":true},{"correct":true,"cue":"double","flanker_type":"neutral","rt":584,"trial_num":65,"corr":true},{"correct":true,"cue":"center","flanker_type":"congruent","rt":618,"trial_num":66,"corr":true},{"correct":true,"cue":"double","flanker_type":"incongruent","rt":670,"trial_num":67,"corr":true},{"correct":true,"cue":"nocue","flanker_type":"neutral","rt":606,"trial_num":68,"corr":true},{"correct":true,"cue":"nocue","flanker_type":"incongruent","rt":571,"trial_num":69,"corr":true},{"correct":true,"cue":"center","flanker_type":"congruent","rt":548,"trial_num":70,"corr":true},{"correct":true,"cue":"nocue","flanker_type":"incongruent","rt":621,"trial_num":71,"corr":true},{"correct":true,"cue":"double","flanker_type":"neutral","rt":602,"trial_num":72,"corr":true},{"correct":true,"cue":"double","flanker_type":"incongruent","rt":573,"trial_num":73,"corr":true},{"correct":true,"cue":"spatial","flanker_type":"congruent","rt":472,"trial_num":74,"corr":true},{"correct":true,"cue":"spatial","flanker_type":"incongruent","rt":655,"trial_num":75,"corr":false},{"correct":true,"cue":"center","flanker_type":"incongruent","rt":507,"trial_num":76,"corr":true},{"correct":true,"cue":"double","flanker_type":"congruent","rt":433,"trial_num":77,"corr":true},{"correct":true,"cue":"spatial","flanker_type":"neutral","rt":635,"trial_num":78,"corr":true},{"correct":true,"cue":"spatial","flanker_type":"neutral","rt":614,"trial_num":79,"corr":true},{"correct":true,"cue":"center","flanker_type":"neutral","rt":512,"trial_num":80,"corr":true},{"correct":true,"cue":"double","flanker_type":"incongruent","rt":705,"trial_num":81,"corr":true},{"correct":true,"cue":"nocue","flanker_type":"neutral","rt":533,"trial_num":82,"corr":true},{"correct":true,"cue":"spatial","flanker_type":"neutral","rt":579,"trial_num":83,"corr":true},{"correct":true,"cue":"double","flanker_type":"neutral","rt":524,"trial_num":84,"corr":true},{"correct":true,"cue":"spatial","flanker_type":"incongruent","rt":592,"trial_num":85,"corr":false},{"correct":true,"cue":"spatial","flanker_type":"incongruent","rt":500,"trial_num":86,"corr":false},{"correct":true,"cue":"center","flanker_type":"congruent","rt":530,"trial_num":87,"corr":true},{"correct":true,"cue":"spatial","flanker_type":"neutral","rt":382,"trial_num":88,"corr":true},{"correct":true,"cue":"center","flanker_type":"congruent","rt":468,"trial_num":89,"corr":true},{"correct":true,"cue":"nocue","flanker_type":"congruent","rt":466,"trial_num":90,"corr":true},{"correct":false,"cue":"nocue","flanker_type":"incongruent","rt":517,"trial_num":91,"corr":true},{"correct":true,"cue":"double","flanker_type":"incongruent","rt":571,"trial_num":92,"corr":true},{"correct":true,"cue":"spatial","flanker_type":"incongruent","rt":609,"trial_num":93,"corr":false},{"correct":true,"cue":"center","flanker_type":"incongruent","rt":513,"trial_num":94,"corr":true},{"correct":true,"cue":"double","flanker_type":"neutral","rt":563,"trial_num":95,"corr":true},{"correct":true,"cue":"center","flanker_type":"incongruent","rt":651,"trial_num":96,"corr":true},{"correct":true,"cue":"double","flanker_type":"incongruent","rt":588,"trial_num":97,"corr":true},{"correct":true,"cue":"spatial","flanker_type":"neutral","rt":520,"trial_num":98,"corr":true},{"correct":true,"cue":"spatial","flanker_type":"neutral","rt":617,"trial_num":99,"corr":true},{"correct":true,"cue":"center","flanker_type":"congruent","rt":598,"trial_num":100,"corr":true},{"correct":true,"cue":"center","flanker_type":"neutral","rt":528,"trial_num":101,"corr":true},{"correct":true,"cue":"double","flanker_type":"incongruent","rt":613,"trial_num":102,"corr":true},{"correct":true,"cue":"double","flanker_type":"neutral","rt":469,"trial_num":103,"corr":true},{"correct":true,"cue":"double","flanker_type":"neutral","rt":586,"trial_num":104,"corr":true},{"correct":true,"cue":"center","flanker_type":"incongruent","rt":622,"trial_num":105,"corr":true},{"correct":true,"cue":"center","flanker_type":"neutral","rt":490,"trial_num":106,"corr":true},{"correct":true,"cue":"nocue","flanker_type":"neutral","rt":625,"trial_num":107,"corr":true},{"correct":true,"cue":"nocue","flanker_type":"incongruent","rt":706,"trial_num":108,"corr":true},{"correct":true,"cue":"spatial","flanker_type":"incongruent","rt":723,"trial_num":109,"corr":false},{"correct":true,"cue":"center","flanker_type":"incongruent","rt":674,"trial_num":110,"corr":true},{"correct":true,"cue":"spatial","flanker_type":"incongruent","rt":614,"trial_num":111,"corr":false},{"correct":true,"cue":"nocue","flanker_type":"neutral","rt":458,"trial_num":112,"corr":true},{"correct":true,"cue":"nocue","flanker_type":"incongruent","rt":566,"trial_num":113,"corr":true},{"correct":true,"cue":"spatial","flanker_type":"incongruent","rt":645,"trial_num":114,"corr":false},{"correct":true,"cue":"spatial","flanker_type":"incongruent","rt":604,"trial_num":115,"corr":false},{"correct":true,"cue":"nocue","flanker_type":"incongruent","rt":692,"trial_num":116,"corr":true},{"correct":true,"cue":"double","flanker_type":"congruent","rt":549,"trial_num":117,"corr":true},{"correct":true,"cue":"spatial","flanker_type":"congruent","rt":564,"trial_num":118,"corr":true},{"correct":true,"cue":"double","flanker_type":"congruent","rt":550,"trial_num":119,"corr":true},{"correct":true,"cue":"spatial","flanker_type":"congruent","rt":545,"trial_num":120,"corr":true},{"correct":true,"cue":"double","flanker_type":"congruent","rt":524,"trial_num":121,"corr":true},{"correct":true,"cue":"center","flanker_type":"neutral","rt":622,"trial_num":122,"corr":true},{"correct":true,"cue":"nocue","flanker_type":"congruent","rt":589,"trial_num":123,"corr":true},{"correct":true,"cue":"nocue","flanker_type":"congruent","rt":619,"trial_num":124,"corr":true},{"correct":true,"cue":"nocue","flanker_type":"neutral","rt":589,"trial_num":125,"corr":true},{"correct":true,"cue":"nocue","flanker_type":"incongruent","rt":697,"trial_num":126,"corr":true},{"correct":true,"cue":"nocue","flanker_type":"congruent","rt":549,"trial_num":127,"corr":true},{"correct":true,"cue":"spatial","flanker_type":"congruent","rt":531,"trial_num":128,"corr":true},{"correct":true,"cue":"nocue","flanker_type":"congruent","rt":590,"trial_num":129,"corr":true},{"correct":true,"cue":"center","flanker_type":"congruent","rt":496,"trial_num":130,"corr":true},{"correct":true,"cue":"nocue","flanker_type":"neutral","rt":456,"trial_num":131,"corr":true},{"correct":true,"cue":"center","flanker_type":"incongruent","rt":604,"trial_num":132,"corr":true},{"correct":true,"cue":"center","flanker_type":"congruent","rt":548,"trial_num":133,"corr":true},{"correct":true,"cue":"double","flanker_type":"incongruent","rt":654,"trial_num":134,"corr":true},{"correct":true,"cue":"center","flanker_type":"incongruent","rt":601,"trial_num":135,"corr":true},{"correct":true,"cue":"double","flanker_type":"neutral","rt":491,"trial_num":136,"corr":true},{"correct":true,"cue":"spatial","flanker_type":"congruent","rt":578,"trial_num":137,"corr":true},{"correct":true,"cue":"double","flanker_type":"congruent","rt":513,"trial_num":138,"corr":true},{"correct":true,"cue":"double","flanker_type":"incongruent","rt":667,"trial_num":139,"corr":true},{"correct":true,"cue":"center","flanker_type":"neutral","rt":467,"trial_num":140,"corr":true},{"correct":true,"cue":"spatial","flanker_type":"neutral","rt":519,"trial_num":141,"corr":true},{"correct":true,"cue":"double","flanker_type":"neutral","rt":594,"trial_num":142,"corr":true},{"correct":true,"cue":"spatial","flanker_type":"neutral","rt":468,"trial_num":143,"corr":true},{"correct":true,"cue":"center","flanker_type":"congruent","rt":576,"trial_num":144,"corr":true}]